correct_ans,images,trials.thisRepN,trials.thisTrialN,trials.thisN,trials.thisIndex,trials_2.thisRepN,trials_2.thisTrialN,trials_2.thisN,trials_2.thisIndex,key_resp_3.keys,key_resp_3.corr,key_resp_3.rt,key_resp_4.keys,key_resp_4.corr,key_resp_4.rt,date,frameRate,expName,session,participant,
left,images/gorilla_face.jpeg,0,3,3,0,,,,,left,1,0.509121894836,,,,2015_Aug_26_0844,60.296862174,proficient,001,001,
right,images/rat_cat.jpeg,,,,,0,0,0,5,,,,left,0,1.38499689102,2015_Aug_26_0844,60.296862174,proficient,001,001,
up,images/marshmallow_hog.jpeg,,,,,0,1,1,8,,,,up,1,0.737932920456,2015_Aug_26_0844,60.296862174,proficient,001,001,
left,images/gorilla_tongue.jpeg,,,,,0,2,2,2,,,,left,1,0.597343921661,2015_Aug_26_0844,60.296862174,proficient,001,001,
right,images/ear_muffs_cat.jpeg,,,,,0,3,3,4,,,,right,1,0.599709033966,2015_Aug_26_0844,60.296862174,proficient,001,001,
up,images/egg_hog.jpeg,,,,,0,4,4,6,,,,up,1,0.56131696701,2015_Aug_26_0844,60.296862174,proficient,001,001,
left,images/gorilla_face.jpeg,,,,,0,5,5,0,,,,left,1,0.776432991028,2015_Aug_26_0844,60.296862174,proficient,001,001,
up,images/icecream_hog.jpeg,,,,,0,6,6,7,,,,up,1,0.952018022537,2015_Aug_26_0844,60.296862174,proficient,001,001,
right,images/cat_eyes.jpeg,,,,,0,7,7,3,,,,right,1,0.843435049057,2015_Aug_26_0844,60.296862174,proficient,001,001,
left,images/gorilla_fat.jpeg,,,,,0,8,8,1,,,,up,0,0.635679006577,2015_Aug_26_0844,60.296862174,proficient,001,001,
up,images/santa_hog.jpeg,,,,,0,9,9,9,,,,left,0,1.23313188553,2015_Aug_26_0844,60.296862174,proficient,001,001,
right,images/rat_cat.jpeg,,,,,1,0,10,5,,,,up,0,1.02656316757,2015_Aug_26_0844,60.296862174,proficient,001,001,
left,images/gorilla_fat.jpeg,,,,,1,1,11,1,,,,left,1,1.60799694061,2015_Aug_26_0844,60.296862174,proficient,001,001,
left,images/gorilla_tongue.jpeg,,,,,1,2,12,2,,,,left,1,0.527907848358,2015_Aug_26_0844,60.296862174,proficient,001,001,
right,images/cat_eyes.jpeg,,,,,1,3,13,3,,,,right,1,0.860180854797,2015_Aug_26_0844,60.296862174,proficient,001,001,
right,images/ear_muffs_cat.jpeg,,,,,1,4,14,4,,,,right,1,0.810992956161,2015_Aug_26_0844,60.296862174,proficient,001,001,
up,images/marshmallow_hog.jpeg,,,,,1,5,15,8,,,,up,1,0.62686085701,2015_Aug_26_0844,60.296862174,proficient,001,001,
up,images/santa_hog.jpeg,,,,,1,6,16,9,,,,up,1,0.627341032028,2015_Aug_26_0844,60.296862174,proficient,001,001,
up,images/icecream_hog.jpeg,,,,,1,7,17,7,,,,up,1,0.560344934464,2015_Aug_26_0844,60.296862174,proficient,001,001,
up,images/egg_hog.jpeg,,,,,1,8,18,6,,,,up,1,0.910107135773,2015_Aug_26_0844,60.296862174,proficient,001,001,
left,images/gorilla_face.jpeg,,,,,1,9,19,0,,,,left,1,0.627278089523,2015_Aug_26_0844,60.296862174,proficient,001,001,
right,images/ear_muffs_cat.jpeg,,,,,2,0,20,4,,,,right,1,0.665270090103,2015_Aug_26_0844,60.296862174,proficient,001,001,
right,images/cat_eyes.jpeg,,,,,2,1,21,3,,,,right,1,0.706792116165,2015_Aug_26_0844,60.296862174,proficient,001,001,
right,images/rat_cat.jpeg,,,,,2,2,22,5,,,,right,1,0.843383789062,2015_Aug_26_0844,60.296862174,proficient,001,001,
left,images/gorilla_tongue.jpeg,,,,,2,3,23,2,,,,up,0,0.644023180008,2015_Aug_26_0844,60.296862174,proficient,001,001,
up,images/santa_hog.jpeg,,,,,2,4,24,9,,,,left,0,0.34458398819,2015_Aug_26_0844,60.296862174,proficient,001,001,
up,images/marshmallow_hog.jpeg,,,,,2,5,25,8,,,,up,1,0.69367313385,2015_Aug_26_0844,60.296862174,proficient,001,001,
left,images/gorilla_fat.jpeg,,,,,2,6,26,1,,,,left,1,0.660775899887,2015_Aug_26_0844,60.296862174,proficient,001,001,
up,images/icecream_hog.jpeg,,,,,2,7,27,7,,,,up,1,0.826754808426,2015_Aug_26_0844,60.296862174,proficient,001,001,
left,images/gorilla_face.jpeg,,,,,2,8,28,0,,,,left,1,0.426692008972,2015_Aug_26_0844,60.296862174,proficient,001,001,
up,images/egg_hog.jpeg,,,,,2,9,29,6,,,,left,0,0.578216075897,2015_Aug_26_0844,60.296862174,proficient,001,001,
up,images/egg_hog.jpeg,,,,,3,0,30,6,,,,up,1,0.445667982101,2015_Aug_26_0844,60.296862174,proficient,001,001,
right,images/ear_muffs_cat.jpeg,,,,,3,1,31,4,,,,right,1,0.695024967194,2015_Aug_26_0844,60.296862174,proficient,001,001,
up,images/santa_hog.jpeg,,,,,3,2,32,9,,,,up,1,1.04306006432,2015_Aug_26_0844,60.296862174,proficient,001,001,
right,images/cat_eyes.jpeg,,,,,3,3,33,3,,,,left,0,0.361510038376,2015_Aug_26_0844,60.296862174,proficient,001,001,
left,images/gorilla_fat.jpeg,,,,,3,4,34,1,,,,up,0,0.477069139481,2015_Aug_26_0844,60.296862174,proficient,001,001,
up,images/marshmallow_hog.jpeg,,,,,3,5,35,8,,,,left,0,0.128275871277,2015_Aug_26_0844,60.296862174,proficient,001,001,
up,images/icecream_hog.jpeg,,,,,3,6,36,7,,,,right,0,0.128035068512,2015_Aug_26_0844,60.296862174,proficient,001,001,
left,images/gorilla_tongue.jpeg,,,,,3,7,37,2,,,,up,0,0.0790681838989,2015_Aug_26_0844,60.296862174,proficient,001,001,
right,images/rat_cat.jpeg,,,,,3,8,38,5,,,,left,0,0.128628015518,2015_Aug_26_0844,60.296862174,proficient,001,001,
left,images/gorilla_face.jpeg,,,,,3,9,39,0,,,,right,0,0.11119890213,2015_Aug_26_0844,60.296862174,proficient,001,001,
left,images/gorilla_face.jpeg,,,,,4,0,40,0,,,,up,0,0.0965530872345,2015_Aug_26_0844,60.296862174,proficient,001,001,
right,images/rat_cat.jpeg,,,,,4,1,41,5,,,,left,0,0.0787451267242,2015_Aug_26_0844,60.296862174,proficient,001,001,
right,images/ear_muffs_cat.jpeg,,,,,4,2,42,4,,,,up,0,0.144984006882,2015_Aug_26_0844,60.296862174,proficient,001,001,
up,images/santa_hog.jpeg,,,,,4,3,43,9,,,,right,0,0.0618147850037,2015_Aug_26_0844,60.296862174,proficient,001,001,
up,images/icecream_hog.jpeg,,,,,4,4,44,7,,,,left,0,0.0616810321808,2015_Aug_26_0844,60.296862174,proficient,001,001,
left,images/gorilla_fat.jpeg,,,,,4,5,45,1,,,,left,1,0.145650863647,2015_Aug_26_0844,60.296862174,proficient,001,001,
up,images/marshmallow_hog.jpeg,,,,,4,6,46,8,,,,up,1,0.19465303421,2015_Aug_26_0844,60.296862174,proficient,001,001,
up,images/egg_hog.jpeg,,,,,4,7,47,6,,,,left,0,0.111652851105,2015_Aug_26_0844,60.296862174,proficient,001,001,
right,images/cat_eyes.jpeg,,,,,4,8,48,3,,,,up,0,0.145714044571,2015_Aug_26_0844,60.296862174,proficient,001,001,
left,images/gorilla_tongue.jpeg,,,,,4,9,49,2,,,,right,0,0.0289809703827,2015_Aug_26_0844,60.296862174,proficient,001,001,
