correct_ans,images,type_of_image,loop.thisRepN,loop.thisTrialN,loop.thisN,loop.thisIndex,key_resp_3.keys,key_resp_3.rt,date,frameRate,expName,session,participant,
up,images/icecream_hog.jpeg,hog,0,0,0,7,up,0.716729879379,2016_Feb_02_1106,60.0997864993,visneuro,001,psychopy_TF,
up,images/marshmallow_hog.jpeg,hog,0,1,1,8,up,0.732481956482,2016_Feb_02_1106,60.0997864993,visneuro,001,psychopy_TF,
right,images/rat_cat.jpeg,cat,0,2,2,5,right,0.633308887482,2016_Feb_02_1106,60.0997864993,visneuro,001,psychopy_TF,
up,images/santa_hog.jpeg,hog,0,3,3,9,up,0.599659204483,2016_Feb_02_1106,60.0997864993,visneuro,001,psychopy_TF,
left,images/gorilla_tongue.jpeg,gorilla,0,4,4,2,left,0.583327054977,2016_Feb_02_1106,60.0997864993,visneuro,001,psychopy_TF,
right,images/ear_muffs_cat.jpeg,cat,0,5,5,4,right,0.650166034698,2016_Feb_02_1106,60.0997864993,visneuro,001,psychopy_TF,
up,images/egg_hog.jpeg,hog,0,6,6,6,up,0.550393104553,2016_Feb_02_1106,60.0997864993,visneuro,001,psychopy_TF,
right,images/cat_eyes.jpeg,cat,0,7,7,3,right,0.949368953705,2016_Feb_02_1106,60.0997864993,visneuro,001,psychopy_TF,
left,images/gorilla_face.jpeg,gorilla,0,8,8,0,left,0.532589912415,2016_Feb_02_1106,60.0997864993,visneuro,001,psychopy_TF,
left,images/gorilla_fat.jpeg,gorilla,0,9,9,1,left,0.483898878098,2016_Feb_02_1106,60.0997864993,visneuro,001,psychopy_TF,
up,images/egg_hog.jpeg,hog,1,0,10,6,up,0.66640496254,2016_Feb_02_1106,60.0997864993,visneuro,001,psychopy_TF,
right,images/ear_muffs_cat.jpeg,cat,1,1,11,4,right,0.717137098312,2016_Feb_02_1106,60.0997864993,visneuro,001,psychopy_TF,
up,images/marshmallow_hog.jpeg,hog,1,2,12,8,up,0.783313989639,2016_Feb_02_1106,60.0997864993,visneuro,001,psychopy_TF,
left,images/gorilla_fat.jpeg,gorilla,1,3,13,1,left,0.599440097809,2016_Feb_02_1106,60.0997864993,visneuro,001,psychopy_TF,
left,images/gorilla_face.jpeg,gorilla,1,4,14,0,left,0.534179925919,2016_Feb_02_1106,60.0997864993,visneuro,001,psychopy_TF,
left,images/gorilla_tongue.jpeg,gorilla,1,5,15,2,left,0.484126806259,2016_Feb_02_1106,60.0997864993,visneuro,001,psychopy_TF,
right,images/rat_cat.jpeg,cat,1,6,16,5,right,0.567489862442,2016_Feb_02_1106,60.0997864993,visneuro,001,psychopy_TF,
right,images/cat_eyes.jpeg,cat,1,7,17,3,right,0.566982984543,2016_Feb_02_1106,60.0997864993,visneuro,001,psychopy_TF,
up,images/icecream_hog.jpeg,hog,1,8,18,7,up,0.633588075638,2016_Feb_02_1106,60.0997864993,visneuro,001,psychopy_TF,
up,images/santa_hog.jpeg,hog,1,9,19,9,right,0.833459854126,2016_Feb_02_1106,60.0997864993,visneuro,001,psychopy_TF,
left,images/gorilla_face.jpeg,gorilla,2,0,20,0,up,1.08294510841,2016_Feb_02_1106,60.0997864993,visneuro,001,psychopy_TF,
up,images/santa_hog.jpeg,hog,2,1,21,9,up,0.882727861404,2016_Feb_02_1106,60.0997864993,visneuro,001,psychopy_TF,
up,images/marshmallow_hog.jpeg,hog,2,2,22,8,up,0.567155838013,2016_Feb_02_1106,60.0997864993,visneuro,001,psychopy_TF,
right,images/cat_eyes.jpeg,cat,2,3,23,3,right,1.28079509735,2016_Feb_02_1106,60.0997864993,visneuro,001,psychopy_TF,
right,images/ear_muffs_cat.jpeg,cat,2,4,24,4,right,0.550325870514,2016_Feb_02_1106,60.0997864993,visneuro,001,psychopy_TF,
left,images/gorilla_fat.jpeg,gorilla,2,5,25,1,left,0.666776895523,2016_Feb_02_1106,60.0997864993,visneuro,001,psychopy_TF,
up,images/icecream_hog.jpeg,hog,2,6,26,7,up,0.832949876785,2016_Feb_02_1106,60.0997864993,visneuro,001,psychopy_TF,
up,images/egg_hog.jpeg,hog,2,7,27,6,up,0.600561141968,2016_Feb_02_1106,60.0997864993,visneuro,001,psychopy_TF,
right,images/rat_cat.jpeg,cat,2,8,28,5,right,0.683315992355,2016_Feb_02_1106,60.0997864993,visneuro,001,psychopy_TF,
left,images/gorilla_tongue.jpeg,gorilla,2,9,29,2,left,0.866323947906,2016_Feb_02_1106,60.0997864993,visneuro,001,psychopy_TF,
right,images/ear_muffs_cat.jpeg,cat,3,0,30,4,right,1.04922485352,2016_Feb_02_1106,60.0997864993,visneuro,001,psychopy_TF,
right,images/rat_cat.jpeg,cat,3,1,31,5,right,0.517020940781,2016_Feb_02_1106,60.0997864993,visneuro,001,psychopy_TF,
left,images/gorilla_tongue.jpeg,gorilla,3,2,32,2,left,0.650109052658,2016_Feb_02_1106,60.0997864993,visneuro,001,psychopy_TF,
right,images/cat_eyes.jpeg,cat,3,3,33,3,right,0.732338905334,2016_Feb_02_1106,60.0997864993,visneuro,001,psychopy_TF,
up,images/santa_hog.jpeg,hog,3,4,34,9,up,0.567459821701,2016_Feb_02_1106,60.0997864993,visneuro,001,psychopy_TF,
up,images/icecream_hog.jpeg,hog,3,5,35,7,up,0.550429821014,2016_Feb_02_1106,60.0997864993,visneuro,001,psychopy_TF,
left,images/gorilla_fat.jpeg,gorilla,3,6,36,1,left,2.2962141037,2016_Feb_02_1106,60.0997864993,visneuro,001,psychopy_TF,
left,images/gorilla_face.jpeg,gorilla,3,7,37,0,left,0.434127807617,2016_Feb_02_1106,60.0997864993,visneuro,001,psychopy_TF,
up,images/marshmallow_hog.jpeg,hog,3,8,38,8,right,0.750090837479,2016_Feb_02_1106,60.0997864993,visneuro,001,psychopy_TF,
up,images/egg_hog.jpeg,hog,3,9,39,6,up,0.749723911285,2016_Feb_02_1106,60.0997864993,visneuro,001,psychopy_TF,
left,images/gorilla_face.jpeg,gorilla,4,0,40,0,left,0.733286142349,2016_Feb_02_1106,60.0997864993,visneuro,001,psychopy_TF,
right,images/cat_eyes.jpeg,cat,4,1,41,3,right,0.766602993011,2016_Feb_02_1106,60.0997864993,visneuro,001,psychopy_TF,
left,images/gorilla_tongue.jpeg,gorilla,4,2,42,2,up,0.79981303215,2016_Feb_02_1106,60.0997864993,visneuro,001,psychopy_TF,
right,images/ear_muffs_cat.jpeg,cat,4,3,43,4,right,1.16443705559,2016_Feb_02_1106,60.0997864993,visneuro,001,psychopy_TF,
up,images/marshmallow_hog.jpeg,hog,4,4,44,8,left,0.650109052658,2016_Feb_02_1106,60.0997864993,visneuro,001,psychopy_TF,
up,images/icecream_hog.jpeg,hog,4,5,45,7,up,0.649961948395,2016_Feb_02_1106,60.0997864993,visneuro,001,psychopy_TF,
up,images/santa_hog.jpeg,hog,4,6,46,9,up,0.483858108521,2016_Feb_02_1106,60.0997864993,visneuro,001,psychopy_TF,
left,images/gorilla_fat.jpeg,gorilla,4,7,47,1,left,1.04920911789,2016_Feb_02_1106,60.0997864993,visneuro,001,psychopy_TF,
right,images/rat_cat.jpeg,cat,4,8,48,5,right,0.766495943069,2016_Feb_02_1106,60.0997864993,visneuro,001,psychopy_TF,
up,images/egg_hog.jpeg,hog,4,9,49,6,up,0.748768091202,2016_Feb_02_1106,60.0997864993,visneuro,001,psychopy_TF,
